PE IR       SPECTRUM    SPECTRUM    ASCII       PEDS        1.60        
  -1
PE.ASC
80/01/12
22:38:29.00
80/01/12
22:38:29.00
Admin

400.000000
4









502,2.19
LITAO3
MIR
KBR
70765
0.300000
1
4.000000
STRONG
RATIO
SPECTRUM


DOUBLE
4
BI DIRECTIONAL
2

0


#HDR
-1
-1
#GR
CM-1
%T
0.00002384185791015625
0.0
6000.000000
-2.000000
2801
8
86.000823
0.003051
#DATA
6000.000000	76.194763 
5998.000000	76.210021 
5996.000000	76.164245 
5994.000000	76.175689 
5992.000000	76.118469 
5990.000000	75.931549 
5988.000000	75.892639 
5986.000000	76.002502 
5984.000000	76.055908 
5982.000000	76.112365 
5980.000000	76.068878 
5978.000000	75.987243 
5976.000000	76.159667 
5974.000000	76.280212 
5972.000000	76.129913 
5970.000000	76.033020 
5968.000000	76.069641 
5966.000000	76.105499 
5964.000000	76.117706 
5962.000000	76.032257 
5960.000000	76.009368 
5958.000000	76.119232 
5956.000000	76.142883 
5954.000000	76.051330 
5952.000000	75.949859 
5950.000000	75.939941 
5948.000000	76.033020 
5946.000000	76.094818 
5944.000000	76.129150 
5942.000000	76.063537 
5940.000000	76.011657 
5938.000000	75.985717 
5936.000000	75.988006 
5934.000000	76.049804 
5932.000000	76.008605 
5930.000000	75.948333 
5928.000000	75.957489 
5926.000000	75.867462 
5924.000000	75.830078 
5922.000000	75.891113 
5920.000000	75.875091 
5918.000000	75.846099 
5916.000000	75.796508 
5914.000000	75.727844 
5912.000000	75.714111 
5910.000000	75.773620 
5908.000000	75.907135 
5906.000000	75.915527 
5904.000000	75.859832 
5902.000000	75.867462 
5900.000000	75.823974 
5898.000000	75.860595 
5896.000000	75.767517 
5894.000000	75.666809 
5892.000000	75.696563 
5890.000000	75.690460 
5888.000000	75.716400 
5886.000000	75.793457 
5884.000000	75.784301 
5882.000000	75.654602 
5880.000000	75.491333 
5878.000000	75.358581 
5876.000000	75.325775 
5874.000000	75.323486 
5872.000000	75.321197 
5870.000000	75.309753 
5868.000000	75.316619 
5866.000000	75.289916 
5864.000000	75.228881 
5862.000000	75.152587 
5860.000000	75.024414 
5858.000000	74.903106 
5856.000000	74.795532 
5854.000000	74.695587 
5852.000000	74.578857 
5850.000000	74.470520 
5848.000000	74.399566 
5846.000000	74.334716 
5844.000000	74.304199 
5842.000000	74.181365 
5840.000000	74.166870 
5838.000000	74.179840 
5836.000000	74.057769 
5834.000000	74.016571 
5832.000000	73.899841 
5830.000000	73.752593 
5828.000000	73.760223 
5826.000000	73.674011 
5824.000000	73.454284 
5822.000000	73.294067 
5820.000000	73.300933 
5818.000000	73.297119 
5816.000000	73.173522 
5814.000000	73.100280 
5812.000000	73.014831 
5810.000000	72.808837 
5808.000000	72.663879 
5806.000000	72.530364 
5804.000000	72.259521 
5802.000000	72.134399 
5800.000000	72.112274 
5798.000000	71.988677 
5796.000000	71.781921 
5794.000000	71.557617 
5792.000000	71.437072 
5790.000000	71.208953 
5788.000000	70.896911 
5786.000000	70.666503 
5784.000000	70.356750 
5782.000000	69.953155 
5780.000000	69.499969 
5778.000000	69.275665 
5776.000000	69.186401 
5774.000000	69.113159 
5772.000000	69.245147 
5770.000000	69.659423 
5768.000000	70.154571 
5766.000000	70.622253 
5764.000000	71.090698 
5762.000000	71.495819 
5760.000000	71.862792 
5758.000000	72.211456 
5756.000000	72.590637 
5754.000000	72.946166 
5752.000000	73.193359 
5750.000000	73.373413 
5748.000000	73.541259 
5746.000000	73.631286 
5744.000000	73.702239 
5742.000000	73.855590 
5740.000000	74.038696 
5738.000000	74.105072 
5736.000000	74.113464 
5734.000000	74.034118 
5732.000000	73.997497 
5730.000000	74.083709 
5728.000000	74.182891 
5726.000000	74.338531 
5724.000000	74.574279 
5722.000000	74.713134 
5720.000000	74.751281 
5718.000000	74.789428 
5716.000000	74.832916 
5714.000000	74.794769 
5712.000000	74.763488 
5710.000000	74.769592 
5708.000000	74.792480 
5706.000000	74.729156 
5704.000000	74.604797 
5702.000000	74.580383 
5700.000000	74.623107 
5698.000000	74.604034 
5696.000000	74.501800 
5694.000000	74.485778 
5692.000000	74.458312 
5690.000000	74.377441 
5688.000000	74.340820 
5686.000000	74.263763 
5684.000000	74.156188 
5682.000000	74.049377 
5680.000000	73.959350 
5678.000000	73.913574 
5676.000000	73.829650 
5674.000000	73.671722 
5672.000000	73.452758 
5670.000000	73.225402 
5668.000000	73.086547 
5666.000000	73.049163 
5664.000000	73.103332 
5662.000000	73.185729 
5660.000000	73.218536 
5658.000000	73.319244 
5656.000000	73.590850 
5654.000000	73.936462 
5652.000000	74.134826 
5650.000000	74.247741 
5648.000000	74.359893 
5646.000000	74.443817 
5644.000000	74.581909 
5642.000000	74.725341 
5640.000000	74.815368 
5638.000000	74.902343 
5636.000000	74.973297 
5634.000000	74.978637 
5632.000000	75.053405 
5630.000000	75.130462 
5628.000000	75.102233 
5626.000000	75.133514 
5624.000000	75.239562 
5622.000000	75.274658 
5620.000000	75.248718 
5618.000000	75.212097 
5616.000000	75.234985 
5614.000000	75.382995 
5612.000000	75.440216 
5610.000000	75.389099 
5608.000000	75.363159 
5606.000000	75.323486 
5604.000000	75.309753 
5602.000000	75.333404 
5600.000000	75.366973 
5598.000000	75.384521 
5596.000000	75.374603 
5594.000000	75.420379 
5592.000000	75.489807 
5590.000000	75.516510 
5588.000000	75.528717 
5586.000000	75.566864 
5584.000000	75.590515 
5582.000000	75.570678 
5580.000000	75.530242 
5578.000000	75.488281 
5576.000000	75.460052 
5574.000000	75.434112 
5572.000000	75.472259 
5570.000000	75.536346 
5568.000000	75.518798 
5566.000000	75.450897 
5564.000000	75.405883 
5562.000000	75.408172 
5560.000000	75.389099 
5558.000000	75.379180 
5556.000000	75.379180 
5554.000000	75.357818 
5552.000000	75.395202 
5550.000000	75.366973 
5548.000000	75.321197 
5546.000000	75.338745 
5544.000000	75.363922 
5542.000000	75.370025 
5540.000000	75.334930 
5538.000000	75.254058 
5536.000000	75.286865 
5534.000000	75.388336 
5532.000000	75.440216 
5530.000000	75.482940 
5528.000000	75.475311 
5526.000000	75.419616 
5524.000000	75.379180 
5522.000000	75.381469 
5520.000000	75.508117 
5518.000000	75.495147 
5516.000000	75.437927 
5514.000000	75.524139 
5512.000000	75.564575 
5510.000000	75.518035 
5508.000000	75.543975 
5506.000000	75.643920 
5504.000000	75.672912 
5502.000000	75.606536 
5500.000000	75.553131 
5498.000000	75.528717 
5496.000000	75.348663 
5494.000000	75.175476 
5492.000000	75.207519 
5490.000000	75.318145 
5488.000000	75.469207 
5486.000000	75.657653 
5484.000000	75.672912 
5482.000000	75.564575 
5480.000000	75.512695 
5478.000000	75.302886 
5476.000000	75.160980 
5474.000000	75.509643 
5472.000000	75.748443 
5470.000000	75.584411 
5468.000000	75.431060 
5466.000000	75.480651 
5464.000000	75.531768 
5462.000000	75.501251 
5460.000000	75.601959 
5458.000000	75.707244 
5456.000000	75.795745 
5454.000000	75.901031 
5452.000000	75.796508 
5450.000000	75.563812 
5448.000000	75.495910 
5446.000000	75.593566 
5444.000000	75.715637 
5442.000000	75.791931 
5440.000000	75.984954 
5438.000000	76.052856 
5436.000000	75.833129 
5434.000000	75.770568 
5432.000000	75.738525 
5430.000000	75.589752 
5428.000000	75.786590 
5426.000000	76.159667 
5424.000000	76.200103 
5422.000000	76.036834 
5420.000000	76.007843 
5418.000000	75.914001 
5416.000000	75.540924 
5414.000000	75.311279 
5412.000000	75.547790 
5410.000000	75.933837 
5408.000000	76.184844 
5406.000000	76.186370 
5404.000000	76.132202 
5402.000000	76.187896 
5400.000000	76.151275 
5398.000000	75.962066 
5396.000000	75.801086 
5394.000000	75.909423 
5392.000000	76.296997 
5390.000000	76.494598 
5388.000000	76.269531 
5386.000000	76.074981 
5384.000000	76.338958 
5382.000000	76.547241 
5380.000000	76.354980 
5378.000000	76.004028 
5376.000000	76.014709 
5374.000000	76.393890 
5372.000000	76.577758 
5370.000000	76.531219 
5368.000000	76.374816 
5366.000000	76.176452 
5364.000000	76.146697 
5362.000000	76.342010 
5360.000000	76.482391 
5358.000000	76.361083 
5356.000000	75.989532 
5354.000000	75.811767 
5352.000000	76.128387 
5350.000000	76.340484 
5348.000000	76.194763 
5346.000000	75.922393 
5344.000000	76.135253 
5342.000000	76.486206 
5340.000000	76.200103 
5338.000000	76.012420 
5336.000000	76.437377 
5334.000000	76.616668 
5332.000000	76.470184 
5330.000000	76.396179 
5328.000000	76.404571 
5326.000000	76.592254 
5324.000000	76.770782 
5322.000000	76.712036 
5320.000000	76.650238 
5318.000000	76.599884 
5316.000000	76.571655 
5314.000000	76.647186 
5312.000000	76.659393 
5310.000000	76.493072 
5308.000000	76.355743 
5306.000000	76.499938 
5304.000000	76.620483 
5302.000000	76.523590 
5300.000000	76.433563 
5298.000000	76.481628 
5296.000000	76.570129 
5294.000000	76.493072 
5292.000000	76.271057 
5290.000000	76.272583 
5288.000000	76.459503 
5286.000000	76.479339 
5284.000000	76.474761 
5282.000000	76.483917 
5280.000000	76.391601 
5278.000000	76.399993 
5276.000000	76.494598 
5274.000000	76.565551 
5272.000000	76.508331 
5270.000000	76.454162 
5268.000000	76.432037 
5266.000000	76.329040 
5264.000000	76.294708 
5262.000000	76.556396 
5260.000000	76.866149 
5258.000000	76.806640 
5256.000000	76.535797 
5254.000000	76.599121 
5252.000000	76.775360 
5250.000000	76.556396 
5248.000000	76.338195 
5246.000000	76.482391 
5244.000000	76.716613 
5242.000000	76.886749 
5240.000000	76.843261 
5238.000000	76.697540 
5236.000000	76.575469 
5234.000000	76.448059 
5232.000000	76.348876 
5230.000000	76.414489 
5228.000000	76.395416 
5226.000000	76.296234 
5224.000000	76.476287 
5222.000000	76.623535 
5220.000000	76.531219 
5218.000000	76.516723 
5216.000000	76.611328 
5214.000000	76.622009 
5212.000000	76.491546 
5210.000000	76.261138 
5208.000000	76.107025 
5206.000000	76.392364 
5204.000000	76.841735 
5202.000000	76.932525 
5200.000000	76.734924 
5198.000000	76.586914 
5196.000000	76.700592 
5194.000000	76.838684 
5192.000000	76.815795 
5190.000000	76.778411 
5188.000000	76.778411 
5186.000000	76.740264 
5184.000000	76.776123 
5182.000000	76.800537 
5180.000000	76.760101 
5178.000000	76.727294 
5176.000000	76.776885 
5174.000000	76.783752 
5172.000000	76.706695 
5170.000000	76.699066 
5168.000000	76.758575 
5166.000000	76.685333 
5164.000000	76.517486 
5162.000000	76.501464 
5160.000000	76.535797 
5158.000000	76.457214 
5156.000000	76.489257 
5154.000000	76.644134 
5152.000000	76.725006 
5150.000000	76.715087 
5148.000000	76.744842 
5146.000000	76.779174 
5144.000000	76.725769 
5142.000000	76.702117 
5140.000000	76.792907 
5138.000000	76.880645 
5136.000000	76.912689 
5134.000000	76.949310 
5132.000000	76.931762 
5130.000000	76.927185 
5128.000000	76.934051 
5126.000000	76.943206 
5124.000000	76.987457 
5122.000000	76.962280 
5120.000000	76.882171 
5118.000000	76.847076 
5116.000000	76.914215 
5114.000000	76.946258 
5112.000000	76.882934 
5110.000000	76.837921 
5108.000000	76.830291 
5106.000000	76.802825 
5104.000000	76.757812 
5102.000000	76.754760 
5100.000000	76.753997 
5098.000000	76.723480 
5096.000000	76.708984 
5094.000000	76.769256 
5092.000000	76.777648 
5090.000000	76.721191 
5088.000000	76.760101 
5086.000000	76.816558 
5084.000000	76.799011 
5082.000000	76.774597 
5080.000000	76.834869 
5078.000000	76.940155 
5076.000000	76.958465 
5074.000000	76.983642 
5072.000000	77.035522 
5070.000000	77.078247 
5068.000000	77.123260 
5066.000000	77.139282 
5064.000000	77.169036 
5062.000000	77.207183 
5060.000000	77.183532 
5058.000000	77.149200 
5056.000000	77.131652 
5054.000000	77.061462 
5052.000000	76.987457 
5050.000000	77.009582 
5048.000000	77.033233 
5046.000000	76.974487 
5044.000000	76.949310 
5042.000000	76.934051 
5040.000000	76.882171 
5038.000000	76.837158 
5036.000000	76.831817 
5034.000000	76.821899 
5032.000000	76.787567 
5030.000000	76.814270 
5028.000000	76.876068 
5026.000000	76.887512 
5024.000000	76.884460 
5022.000000	76.903533 
5020.000000	76.946258 
5018.000000	76.980590 
5016.000000	76.991271 
5014.000000	76.986694 
5012.000000	77.088165 
5010.000000	77.193450 
5008.000000	77.165222 
5006.000000	77.172088 
5004.000000	77.181243 
5002.000000	77.134704 
5000.000000	77.136993 
4998.000000	77.160644 
4996.000000	77.142333 
4994.000000	77.143859 
4992.000000	77.142333 
4990.000000	77.082061 
4988.000000	76.987457 
4986.000000	76.905822 
4984.000000	76.899719 
4982.000000	76.920318 
4980.000000	76.911926 
4978.000000	76.853179 
4976.000000	76.771545 
4974.000000	76.791381 
4972.000000	76.851654 
4970.000000	76.795959 
4968.000000	76.721191 
4966.000000	76.741027 
4964.000000	76.739501 
4962.000000	76.750183 
4960.000000	76.835632 
4958.000000	76.921844 
4956.000000	76.980590 
4954.000000	77.017211 
4952.000000	77.063751 
4950.000000	77.132415 
4948.000000	77.173614 
4946.000000	77.196502 
4944.000000	77.249145 
4942.000000	77.310943 
4940.000000	77.346038 
4938.000000	77.349090 
4936.000000	77.321624 
4934.000000	77.307128 
4932.000000	77.298736 
4930.000000	77.257537 
4928.000000	77.224731 
4926.000000	77.195739 
4924.000000	77.153778 
4922.000000	77.140808 
4920.000000	77.069091 
4918.000000	77.017974 
4916.000000	77.011871 
4914.000000	76.991271 
4912.000000	76.969909 
4910.000000	76.956939 
4908.000000	76.953125 
4906.000000	76.971435 
4904.000000	76.972198 
4902.000000	76.954650 
4900.000000	76.990509 
4898.000000	77.043151 
4896.000000	77.050781 
4894.000000	77.069091 
4892.000000	77.103424 
4890.000000	77.121734 
4888.000000	77.182769 
4886.000000	77.230072 
4884.000000	77.233123 
4882.000000	77.279663 
4880.000000	77.323150 
4878.000000	77.309417 
4876.000000	77.310180 
4874.000000	77.322387 
4872.000000	77.322387 
4870.000000	77.307128 
4868.000000	77.281951 
4866.000000	77.257537 
4864.000000	77.241516 
4862.000000	77.281951 
4860.000000	77.258300 
4858.000000	77.194213 
4856.000000	77.156829 
4854.000000	77.149200 
4852.000000	77.099609 
4850.000000	77.025604 
4848.000000	77.032470 
4846.000000	77.066802 
4844.000000	77.104949 
4842.000000	77.121734 
4840.000000	77.097320 
4838.000000	77.074432 
4836.000000	77.089691 
4834.000000	77.146911 
4832.000000	77.217102 
4830.000000	77.292633 
4828.000000	77.359008 
4826.000000	77.387237 
4824.000000	77.404785 
4822.000000	77.452850 
4820.000000	77.519989 
4818.000000	77.546691 
4816.000000	77.584075 
4814.000000	77.656555 
4812.000000	77.695465 
4810.000000	77.674865 
4808.000000	77.633666 
4806.000000	77.627563 
4804.000000	77.611541 
4802.000000	77.568054 
4800.000000	77.529144 
4798.000000	77.517700 
4796.000000	77.484893 
4794.000000	77.437591 
4792.000000	77.387237 
4790.000000	77.357482 
4788.000000	77.361297 
4786.000000	77.323150 
4784.000000	77.267456 
4782.000000	77.263641 
4780.000000	77.297973 
4778.000000	77.334594 
4776.000000	77.331542 
4774.000000	77.358245 
4772.000000	77.426910 
4770.000000	77.454376 
4768.000000	77.514648 
4766.000000	77.584075 
4764.000000	77.628326 
4762.000000	77.680206 
4760.000000	77.730560 
4758.000000	77.788543 
4756.000000	77.811431 
4754.000000	77.821350 
4752.000000	77.827453 
4750.000000	77.850341 
4748.000000	77.874755 
4746.000000	77.867126 
4744.000000	77.841949 
4742.000000	77.818298 
4740.000000	77.797698 
4738.000000	77.769470 
4736.000000	77.705383 
4734.000000	77.648925 
4732.000000	77.601623 
4730.000000	77.558898 
4728.000000	77.523803 
4726.000000	77.499389 
4724.000000	77.516174 
4722.000000	77.484130 
4720.000000	77.400207 
4718.000000	77.365112 
4716.000000	77.371215 
4714.000000	77.411651 
4712.000000	77.493286 
4710.000000	77.577209 
4708.000000	77.632904 
4706.000000	77.628326 
4704.000000	77.705383 
4702.000000	77.819824 
4700.000000	77.817535 
4698.000000	77.816772 
4696.000000	77.860260 
4694.000000	77.912902 
4692.000000	77.961730 
4690.000000	78.005218 
4688.000000	78.009796 
4686.000000	78.008270 
4684.000000	78.020477 
4682.000000	78.007507 
4680.000000	77.986907 
4678.000000	77.947998 
4676.000000	77.902984 
4674.000000	77.889251 
4672.000000	77.810668 
4670.000000	77.680969 
4668.000000	77.628326 
4666.000000	77.588653 
4664.000000	77.554321 
4662.000000	77.543640 
4660.000000	77.489471 
4658.000000	77.448272 
4656.000000	77.443695 
4654.000000	77.484893 
4652.000000	77.541351 
4650.000000	77.563476 
4648.000000	77.558898 
4646.000000	77.563476 
4644.000000	77.633666 
4642.000000	77.738952 
4640.000000	77.840423 
4638.000000	77.854156 
4636.000000	77.889251 
4634.000000	77.962493 
4632.000000	78.025054 
4630.000000	78.067016 
4628.000000	78.087615 
4626.000000	78.070831 
4624.000000	78.067016 
4622.000000	78.084564 
4620.000000	78.085327 
4618.000000	78.060150 
4616.000000	78.025817 
4614.000000	77.995300 
4612.000000	77.953338 
4610.000000	77.890014 
4608.000000	77.841186 
4606.000000	77.801513 
4604.000000	77.732849 
4602.000000	77.659606 
4600.000000	77.632904 
4598.000000	77.583312 
4596.000000	77.548980 
4594.000000	77.557373 
4592.000000	77.549743 
4590.000000	77.571105 
4588.000000	77.571868 
4586.000000	77.556610 
4584.000000	77.602386 
4582.000000	77.693176 
4580.000000	77.751159 
4578.000000	77.803039 
4576.000000	77.886199 
4574.000000	77.959442 
4572.000000	77.995300 
4570.000000	78.047943 
4568.000000	78.098297 
4566.000000	78.136444 
4564.000000	78.156280 
4562.000000	78.145599 
4560.000000	78.132629 
4558.000000	78.138732 
4556.000000	78.126525 
4554.000000	78.091430 
4552.000000	78.047180 
4550.000000	77.975463 
4548.000000	77.915954 
4546.000000	77.836608 
4544.000000	77.748107 
4542.000000	77.687835 
4540.000000	77.604675 
4538.000000	77.524566 
4536.000000	77.503204 
4534.000000	77.473449 
4532.000000	77.433013 
4530.000000	77.401733 
4528.000000	77.406311 
4526.000000	77.438354 
4524.000000	77.466583 
4522.000000	77.470397 
4520.000000	77.484893 
4518.000000	77.567291 
4516.000000	77.650451 
4514.000000	77.696990 
4512.000000	77.745819 
4510.000000	77.793884 
4508.000000	77.826690 
4506.000000	77.886199 
4504.000000	77.952575 
4502.000000	77.968597 
4500.000000	77.951049 
4498.000000	77.952575 
4496.000000	77.936553 
4494.000000	77.872467 
4492.000000	77.791595 
4490.000000	77.753448 
4488.000000	77.692413 
4486.000000	77.604675 
4484.000000	77.504730 
4482.000000	77.410125 
4480.000000	77.318572 
4478.000000	77.223205 
4476.000000	77.150726 
4474.000000	77.097320 
4472.000000	77.038574 
4470.000000	76.997375 
4468.000000	76.943969 
4466.000000	76.908111 
4464.000000	76.885223 
4462.000000	76.866149 
4460.000000	76.903533 
4458.000000	76.962280 
4456.000000	76.965332 
4454.000000	76.969909 
4452.000000	77.017974 
4450.000000	77.090454 
4448.000000	77.140045 
4446.000000	77.140808 
4444.000000	77.140808 
4442.000000	77.142333 
4440.000000	77.108764 
4438.000000	77.066802 
4436.000000	77.011871 
4434.000000	76.961517 
4432.000000	76.914978 
4430.000000	76.807403 
4428.000000	76.679992 
4426.000000	76.536560 
4424.000000	76.373291 
4422.000000	76.198577 
4420.000000	76.026153 
4418.000000	75.867462 
4416.000000	75.679779 
4414.000000	75.461578 
4412.000000	75.238800 
4410.000000	75.032806 
4408.000000	74.848175 
4406.000000	74.678802 
4404.000000	74.503326 
4402.000000	74.331665 
4400.000000	74.150848 
4398.000000	73.979187 
4396.000000	73.849487 
4394.000000	73.704528 
4392.000000	73.537445 
4390.000000	73.394012 
4388.000000	73.252868 
4386.000000	73.091888 
4384.000000	72.927856 
4382.000000	72.743225 
4380.000000	72.537994 
4378.000000	72.328948 
4376.000000	72.093963 
4374.000000	71.823883 
4372.000000	71.546936 
4370.000000	71.249389 
4368.000000	70.933532 
4366.000000	70.621490 
4364.000000	70.258331 
4362.000000	69.858551 
4360.000000	69.423675 
4358.000000	68.906402 
4356.000000	68.285369 
4354.000000	67.578125 
4352.000000	66.777038 
4350.000000	65.868377 
4348.000000	64.839172 
4346.000000	63.696289 
4344.000000	62.471008 
4342.000000	61.295318 
4340.000000	60.253906 
4338.000000	59.353637 
4336.000000	58.457946 
4334.000000	57.447052 
4332.000000	56.182098 
4330.000000	54.474639 
4328.000000	52.130889 
4326.000000	49.133300 
4324.000000	46.237182 
4322.000000	45.020294 
4320.000000	46.661376 
4318.000000	50.666809 
4316.000000	55.372619 
4314.000000	59.484863 
4312.000000	62.637329 
4310.000000	64.937591 
4308.000000	66.529846 
4306.000000	67.624664 
4304.000000	68.367004 
4302.000000	68.820953 
4300.000000	69.094848 
4298.000000	69.235229 
4296.000000	69.239807 
4294.000000	69.143676 
4292.000000	68.982696 
4290.000000	68.772125 
4288.000000	68.526458 
4286.000000	68.255615 
4284.000000	67.994689 
4282.000000	67.772674 
4280.000000	67.574310 
4278.000000	67.368316 
4276.000000	67.120361 
4274.000000	66.831970 
4272.000000	66.523742 
4270.000000	66.162109 
4268.000000	65.684509 
4266.000000	65.047454 
4264.000000	64.180755 
4262.000000	63.090515 
4260.000000	61.730194 
4258.000000	60.047912 
4256.000000	58.096313 
4254.000000	56.108856 
4252.000000	54.753112 
4250.000000	54.857635 
4248.000000	56.564331 
4246.000000	59.090423 
4244.000000	61.528015 
4242.000000	63.399505 
4240.000000	64.620208 
4238.000000	65.319061 
4236.000000	65.674591 
4234.000000	65.774536 
4232.000000	65.654754 
4230.000000	65.353393 
4228.000000	64.911651 
4226.000000	64.402770 
4224.000000	63.894653 
4222.000000	63.482666 
4220.000000	63.275909 
4218.000000	63.301086 
4216.000000	63.465118 
4214.000000	63.651275 
4212.000000	63.801574 
4210.000000	63.873291 
4208.000000	63.830566 
4206.000000	63.642120 
4204.000000	63.298797 
4202.000000	62.804412 
4200.000000	62.200927 
4198.000000	61.588287 
4196.000000	61.133575 
4194.000000	60.937500 
4192.000000	60.903930 
4190.000000	60.932922 
4188.000000	61.039733 
4186.000000	61.157226 
4184.000000	61.241149 
4182.000000	61.310577 
4180.000000	61.354064 
4178.000000	61.389923 
4176.000000	61.428070 
4174.000000	61.456298 
4172.000000	61.473083 
4170.000000	61.470031 
4168.000000	61.465454 
4166.000000	61.476135 
4164.000000	61.473083 
4162.000000	61.457824 
4160.000000	61.434936 
4158.000000	61.405944 
4156.000000	61.380767 
4154.000000	61.373138 
4152.000000	61.376953 
4150.000000	61.396789 
4148.000000	61.446380 
4146.000000	61.530303 
4144.000000	61.649322 
4142.000000	61.785125 
4140.000000	61.922454 
4138.000000	62.092590 
4136.000000	62.258148 
4134.000000	62.408447 
4132.000000	62.565612 
4130.000000	62.712860 
4128.000000	62.831115 
4126.000000	62.922668 
4124.000000	62.995147 
4122.000000	63.040161 
4120.000000	63.074493 
4118.000000	63.097381 
4116.000000	63.075256 
4114.000000	63.027954 
4112.000000	62.970733 
4110.000000	62.878417 
4108.000000	62.751770 
4106.000000	62.636566 
4104.000000	62.555694 
4102.000000	62.476348 
4100.000000	62.386322 
4098.000000	62.354278 
4096.000000	62.450408 
4094.000000	62.669372 
4092.000000	63.052368 
4090.000000	63.572692 
4088.000000	64.175415 
4086.000000	64.788055 
4084.000000	65.332794 
4082.000000	65.795135 
4080.000000	66.199493 
4078.000000	66.581726 
4076.000000	66.913604 
4074.000000	67.187500 
4072.000000	67.475128 
4070.000000	67.787170 
4068.000000	68.068695 
4066.000000	68.312072 
4064.000000	68.524169 
4062.000000	68.726348 
4060.000000	68.958282 
4058.000000	69.158935 
4056.000000	69.274902 
4054.000000	69.361877 
4052.000000	69.435119 
4050.000000	69.495391 
4048.000000	69.535064 
4046.000000	69.542694 
4044.000000	69.588470 
4042.000000	69.657897 
4040.000000	69.707489 
4038.000000	69.728088 
4036.000000	69.686126 
4034.000000	69.648742 
4032.000000	69.612121 
4030.000000	69.528198 
4028.000000	69.421386 
4026.000000	69.330596 
4024.000000	69.302368 
4022.000000	69.328308 
4020.000000	69.498443 
4018.000000	69.903564 
4016.000000	70.439147 
4014.000000	70.981597 
4012.000000	71.446990 
4010.000000	71.802520 
4008.000000	72.113037 
4006.000000	72.402191 
4004.000000	72.614288 
4002.000000	72.760772 
4000.000000	72.863006 
3998.000000	72.904968 
3996.000000	72.903442 
3994.000000	72.922515 
3992.000000	72.898864 
3990.000000	72.859191 
3988.000000	72.836303 
3986.000000	72.730255 
3984.000000	72.599029 
3982.000000	72.460174 
3980.000000	72.319793 
3978.000000	72.166442 
3976.000000	72.021484 
3974.000000	72.007751 
3972.000000	72.052001 
3970.000000	72.062683 
3968.000000	72.103118 
3966.000000	72.103118 
3964.000000	72.030639 
3962.000000	72.059631 
3960.000000	72.218322 
3958.000000	72.308349 
3956.000000	72.367095 
3954.000000	72.418212 
3952.000000	72.338867 
3950.000000	72.245025 
3948.000000	72.471618 
3946.000000	72.679901 
3944.000000	72.553253 
3942.000000	72.775268 
3940.000000	73.101806 
3938.000000	73.062896 
3936.000000	72.850799 
3934.000000	72.410583 
3932.000000	72.254180 
3930.000000	72.569274 
3928.000000	72.614288 
3926.000000	72.210693 
3924.000000	72.125244 
3922.000000	72.238159 
3920.000000	71.899414 
3918.000000	71.633148 
3916.000000	71.839904 
3914.000000	72.023773 
3912.000000	71.838378 
3910.000000	71.621704 
3908.000000	71.233367 
3906.000000	70.527648 
3904.000000	70.294952 
3902.000000	70.818328 
3900.000000	71.315765 
3898.000000	71.832275 
3896.000000	71.907806 
3894.000000	71.351623 
3892.000000	71.100616 
3890.000000	71.810150 
3888.000000	71.825408 
3886.000000	71.431732 
3884.000000	71.936798 
3882.000000	71.958160 
3880.000000	72.301483 
3878.000000	72.953796 
3876.000000	72.476196 
3874.000000	72.021484 
3872.000000	72.051239 
3870.000000	72.251129 
3868.000000	73.221588 
3866.000000	73.023223 
3864.000000	72.843933 
3862.000000	73.518371 
3860.000000	73.705291 
3858.000000	73.081970 
3856.000000	71.823120 
3854.000000	71.070861 
3852.000000	73.059082 
3850.000000	74.050903 
3848.000000	73.591613 
3846.000000	72.796630 
3844.000000	72.138214 
3842.000000	71.834564 
3840.000000	71.570587 
3838.000000	71.897125 
3836.000000	72.672271 
3834.000000	72.846221 
3832.000000	72.780609 
3830.000000	72.918701 
3828.000000	72.724151 
3826.000000	72.685241 
3824.000000	72.551727 
3822.000000	71.870422 
3820.000000	72.804260 
3818.000000	73.424530 
3816.000000	73.410034 
3814.000000	74.258422 
3812.000000	74.346923 
3810.000000	73.770904 
3808.000000	73.228454 
3806.000000	73.748779 
3804.000000	73.877716 
3802.000000	73.421478 
3800.000000	74.481964 
3798.000000	74.787902 
3796.000000	74.721527 
3794.000000	74.982452 
3792.000000	74.748992 
3790.000000	74.404144 
3788.000000	74.153900 
3786.000000	73.869323 
3784.000000	73.984527 
3782.000000	73.992156 
3780.000000	73.683929 
3778.000000	74.066162 
3776.000000	74.363708 
3774.000000	74.136352 
3772.000000	73.639678 
3770.000000	73.517608 
3768.000000	74.108123 
3766.000000	74.324798 
3764.000000	74.652862 
3762.000000	74.582672 
3760.000000	74.194335 
3758.000000	74.671936 
3756.000000	75.057220 
3754.000000	74.467468 
3752.000000	73.636627 
3750.000000	74.668884 
3748.000000	75.702667 
3746.000000	75.120544 
3744.000000	75.468444 
3742.000000	76.399230 
3740.000000	75.857543 
3738.000000	74.655914 
3736.000000	73.958587 
3734.000000	74.906921 
3732.000000	75.923156 
3730.000000	75.959777 
3728.000000	75.134277 
3726.000000	74.530029 
3724.000000	74.543762 
3722.000000	74.649810 
3720.000000	74.808502 
3718.000000	74.801635 
3716.000000	74.491882 
3714.000000	73.635101 
3712.000000	73.056793 
3710.000000	74.047088 
3708.000000	74.872589 
3706.000000	74.776458 
3704.000000	74.269866 
3702.000000	74.088287 
3700.000000	74.662017 
3698.000000	74.872589 
3696.000000	74.758148 
3694.000000	74.569702 
3692.000000	73.956298 
3690.000000	73.819732 
3688.000000	75.225067 
3686.000000	76.009368 
3684.000000	75.727081 
3682.000000	75.197601 
3680.000000	74.618530 
3678.000000	73.774719 
3676.000000	73.295593 
3674.000000	74.779510 
3672.000000	74.691772 
3670.000000	74.098968 
3668.000000	74.948120 
3666.000000	74.955749 
3664.000000	74.333190 
3662.000000	73.846435 
3660.000000	73.446655 
3658.000000	72.882843 
3656.000000	72.700500 
3654.000000	72.856140 
3652.000000	71.764373 
3650.000000	70.536804 
3648.000000	71.712493 
3646.000000	72.920227 
3644.000000	72.904205 
3642.000000	72.585296 
3640.000000	72.660827 
3638.000000	72.927093 
3636.000000	73.123931 
3634.000000	73.278045 
3632.000000	73.189544 
3630.000000	72.632598 
3628.000000	73.731231 
3626.000000	74.939727 
3624.000000	74.575042 
3622.000000	73.594665 
3620.000000	72.775268 
3618.000000	72.972869 
3616.000000	72.847747 
3614.000000	71.933746 
3612.000000	71.325683 
3610.000000	70.530700 
3608.000000	69.751739 
3606.000000	69.522857 
3604.000000	69.062805 
3602.000000	68.681335 
3600.000000	69.190979 
3598.000000	70.145416 
3596.000000	70.909118 
3594.000000	71.837615 
3592.000000	72.599029 
3590.000000	72.458648 
3588.000000	72.232055 
3586.000000	73.270416 
3584.000000	73.995971 
3582.000000	73.992919 
3580.000000	74.006652 
3578.000000	74.180603 
3576.000000	74.364471 
3574.000000	74.588775 
3572.000000	74.694824 
3570.000000	74.301147 
3568.000000	73.796844 
3566.000000	74.637603 
3564.000000	75.559997 
3562.000000	75.520324 
3560.000000	75.337219 
3558.000000	75.286102 
3556.000000	75.104522 
3554.000000	74.752044 
3552.000000	74.661254 
3550.000000	74.683380 
3548.000000	74.253082 
3546.000000	73.982238 
3544.000000	74.146270 
3542.000000	74.167633 
3540.000000	73.850250 
3538.000000	73.407745 
3536.000000	73.126220 
3534.000000	73.020172 
3532.000000	72.753906 
3530.000000	72.431182 
3528.000000	72.303009 
3526.000000	72.319030 
3524.000000	72.332000 
3522.000000	72.501373 
3520.000000	72.628784 
3518.000000	72.611236 
3516.000000	72.644805 
3514.000000	72.669982 
3512.000000	72.606658 
3510.000000	72.584533 
3508.000000	72.779083 
3506.000000	72.767639 
3504.000000	72.582244 
3502.000000	72.732543 
3500.000000	72.901916 
3498.000000	72.782897 
3496.000000	72.652435 
3494.000000	72.593688 
3492.000000	72.449493 
3490.000000	72.199249 
3488.000000	71.958923 
3486.000000	71.791076 
3484.000000	71.515655 
3482.000000	71.181488 
3480.000000	71.031951 
3478.000000	70.838165 
3476.000000	70.513916 
3474.000000	70.270538 
3472.000000	70.093536 
3470.000000	69.863891 
3468.000000	69.660186 
3466.000000	69.522857 
3464.000000	69.381713 
3462.000000	69.286346 
3460.000000	69.285583 
3458.000000	69.290161 
3456.000000	69.295501 
3454.000000	69.316864 
3452.000000	69.342041 
3450.000000	69.305419 
3448.000000	69.239807 
3446.000000	69.409942 
3444.000000	69.546508 
3442.000000	69.577789 
3440.000000	69.625091 
3438.000000	69.643402 
3436.000000	69.633483 
3434.000000	69.549560 
3432.000000	69.435119 
3430.000000	69.355010 
3428.000000	69.262695 
3426.000000	69.112396 
3424.000000	68.902587 
3422.000000	68.690490 
3420.000000	68.592834 
3418.000000	68.547058 
3416.000000	68.396759 
3414.000000	68.239593 
3412.000000	68.142700 
3410.000000	68.041992 
3408.000000	67.939758 
3406.000000	67.870330 
3404.000000	67.837524 
3402.000000	67.876434 
3400.000000	67.922973 
3398.000000	67.931365 
3396.000000	68.002319 
3394.000000	68.090057 
3392.000000	68.221282 
3390.000000	68.392944 
3388.000000	68.508148 
3386.000000	68.609619 
3384.000000	68.754577 
3382.000000	68.892669 
3380.000000	68.981170 
3378.000000	69.023895 
3376.000000	69.026947 
3374.000000	69.023132 
3372.000000	69.017791 
3370.000000	68.975067 
3368.000000	68.937683 
3366.000000	68.933868 
3364.000000	68.914794 
3362.000000	68.872833 
3360.000000	68.816375 
3358.000000	68.746185 
3356.000000	68.668365 
3354.000000	68.596649 
3352.000000	68.521881 
3350.000000	68.465423 
3348.000000	68.444061 
3346.000000	68.416595 
3344.000000	68.371582 
3342.000000	68.379974 
3340.000000	68.435668 
3338.000000	68.510437 
3336.000000	68.637847 
3334.000000	68.829345 
3332.000000	69.020843 
3330.000000	69.232177 
3328.000000	69.408416 
3326.000000	69.573211 
3324.000000	69.789886 
3322.000000	70.007324 
3320.000000	70.188140 
3318.000000	70.326995 
3316.000000	70.437622 
3314.000000	70.513153 
3312.000000	70.553588 
3310.000000	70.569610 
3308.000000	70.557403 
3306.000000	70.512390 
3304.000000	70.408630 
3302.000000	70.301055 
3300.000000	70.182037 
3298.000000	70.020294 
3296.000000	69.879913 
3294.000000	69.736480 
3292.000000	69.581604 
3290.000000	69.468688 
3288.000000	69.386291 
3286.000000	69.310760 
3284.000000	69.247436 
3282.000000	69.224548 
3280.000000	69.255828 
3278.000000	69.291687 
3276.000000	69.346618 
3274.000000	69.483947 
3272.000000	69.659423 
3270.000000	69.826507 
3268.000000	70.008850 
3266.000000	70.184326 
3264.000000	70.349121 
3262.000000	70.492553 
3260.000000	70.641326 
3258.000000	70.784759 
3256.000000	70.875549 
3254.000000	70.935058 
3252.000000	70.990753 
3250.000000	70.970153 
3248.000000	70.874786 
3246.000000	70.748901 
3244.000000	70.658111 
3242.000000	70.562744 
3240.000000	70.382690 
3238.000000	70.175933 
3236.000000	69.992828 
3234.000000	69.812774 
3232.000000	69.656372 
3230.000000	69.536590 
3228.000000	69.412231 
3226.000000	69.329071 
3224.000000	69.281768 
3222.000000	69.232940 
3220.000000	69.224548 
3218.000000	69.297027 
3216.000000	69.361114 
3214.000000	69.421386 
3212.000000	69.537353 
3210.000000	69.688415 
3208.000000	69.851684 
3206.000000	69.973754 
3204.000000	70.067596 
3202.000000	70.162963 
3200.000000	70.217895 
3198.000000	70.228576 
3196.000000	70.246124 
3194.000000	70.248413 
3192.000000	70.189666 
3190.000000	70.095825 
3188.000000	69.966125 
3186.000000	69.784545 
3184.000000	69.609069 
3182.000000	69.441223 
3180.000000	69.226074 
3178.000000	69.019317 
3176.000000	68.867492 
3174.000000	68.703460 
3172.000000	68.533325 
3170.000000	68.400573 
3168.000000	68.303680 
3166.000000	68.240356 
3164.000000	68.225860 
3162.000000	68.241119 
3160.000000	68.301391 
3158.000000	68.398284 
3156.000000	68.493652 
3154.000000	68.598937 
3152.000000	68.711853 
3150.000000	68.834686 
3148.000000	68.965148 
3146.000000	69.058227 
3144.000000	69.110870 
3142.000000	69.132995 
3140.000000	69.096374 
3138.000000	69.012451 
3136.000000	68.883514 
3134.000000	68.692016 
3132.000000	68.484497 
3130.000000	68.246459 
3128.000000	67.942810 
3126.000000	67.614746 
3124.000000	67.284393 
3122.000000	66.949462 
3120.000000	66.609191 
3118.000000	66.253662 
3116.000000	65.920257 
3114.000000	65.659332 
3112.000000	65.396118 
3110.000000	65.116882 
3108.000000	64.873504 
3106.000000	64.656829 
3104.000000	64.360046 
3102.000000	63.992309 
3100.000000	63.602447 
3098.000000	63.121032 
3096.000000	62.517547 
3094.000000	61.882781 
3092.000000	61.251831 
3090.000000	60.654449 
3088.000000	60.140228 
3086.000000	59.705352 
3084.000000	59.322357 
3082.000000	58.964538 
3080.000000	58.628082 
3078.000000	58.307647 
3076.000000	57.961273 
3074.000000	57.594299 
3072.000000	57.239532 
3070.000000	56.834411 
3068.000000	56.404876 
3066.000000	56.019592 
3064.000000	55.662536 
3062.000000	55.315399 
3060.000000	54.959869 
3058.000000	54.589080 
3056.000000	54.248809 
3054.000000	53.926086 
3052.000000	53.543853 
3050.000000	53.112030 
3048.000000	52.673339 
3046.000000	52.182006 
3044.000000	51.587677 
3042.000000	50.939178 
3040.000000	50.245666 
3038.000000	49.514007 
3036.000000	48.787689 
3034.000000	48.072052 
3032.000000	47.390747 
3030.000000	46.776580 
3028.000000	46.195220 
3026.000000	45.617675 
3024.000000	45.090484 
3022.000000	44.609832 
3020.000000	44.165802 
3018.000000	43.739318 
3016.000000	43.307495 
3014.000000	42.884826 
3012.000000	42.462921 
3010.000000	42.007446 
3008.000000	41.453552 
3006.000000	40.787506 
3004.000000	40.016174 
3002.000000	39.163208 
3000.000000	38.191986 
2998.000000	37.103271 
2996.000000	35.897064 
2994.000000	34.582519 
2992.000000	33.166503 
2990.000000	31.645965 
2988.000000	30.021667 
2986.000000	28.247833 
2984.000000	26.280212 
2982.000000	24.124145 
2980.000000	21.762847 
2978.000000	19.229888 
2976.000000	16.569519 
2974.000000	13.839721 
2972.000000	11.153411 
2970.000000	8.628082  
2968.000000	6.416320  
2966.000000	4.608917  
2964.000000	3.220367  
2962.000000	2.221679  
2960.000000	1.546478  
2958.000000	1.100158  
2956.000000	0.802612  
2954.000000	0.579833  
2952.000000	0.432586  
2950.000000	0.312805  
2948.000000	0.205230  
2946.000000	0.115966  
2944.000000	0.067138  
2942.000000	0.042724  
2940.000000	0.021362  
2938.000000	0.017547  
2936.000000	0.021362  
2934.000000	0.008392  
2932.000000	0.003051  
2930.000000	0.007629  
2928.000000	0.016021  
2926.000000	0.003051  
2924.000000	0.013732  
2922.000000	0.035858  
2920.000000	0.029754  
2918.000000	0.012207  
2916.000000	0.012207  
2914.000000	0.026702  
2912.000000	0.026702  
2910.000000	0.020599  
2908.000000	0.019073  
2906.000000	0.032043  
2904.000000	0.034332  
2902.000000	0.030517  
2900.000000	0.027465  
2898.000000	0.027465  
2896.000000	0.038146  
2894.000000	0.051116  
2892.000000	0.049591  
2890.000000	0.056457  
2888.000000	0.064849  
2886.000000	0.079345  
2884.000000	0.108337  
2882.000000	0.155639  
2880.000000	0.203704  
2878.000000	0.255584  
2876.000000	0.296020  
2874.000000	0.320434  
2872.000000	0.320434  
2870.000000	0.304412  
2868.000000	0.259399  
2866.000000	0.190734  
2864.000000	0.124359  
2862.000000	0.094604  
2860.000000	0.077056  
2858.000000	0.076293  
2856.000000	0.086975  
2854.000000	0.084686  
2852.000000	0.086975  
2850.000000	0.089263  
2848.000000	0.083160  
2846.000000	0.084686  
2844.000000	0.099945  
2842.000000	0.109100  
2840.000000	0.197601  
2838.000000	0.556182  
2836.000000	1.316070  
2834.000000	2.450561  
2832.000000	3.884124  
2830.000000	5.490875  
2828.000000	7.205200  
2826.000000	8.983612  
2824.000000	10.758209 
2822.000000	12.481689 
2820.000000	14.146423 
2818.000000	15.752410 
2816.000000	17.321777 
2814.000000	18.854522 
2812.000000	20.355987 
2810.000000	21.832275 
2808.000000	23.268890 
2806.000000	24.652099 
2804.000000	25.958251 
2802.000000	27.193450 
2800.000000	28.402709 
2798.000000	29.617309 
2796.000000	30.878448 
2794.000000	32.205963 
2792.000000	33.587646 
2790.000000	35.030364 
2788.000000	36.512756 
2786.000000	38.009643 
2784.000000	39.466094 
2782.000000	40.859222 
2780.000000	42.162322 
2778.000000	43.349456 
2776.000000	44.383239 
2774.000000	45.260620 
2772.000000	46.019744 
2770.000000	46.661376 
2768.000000	47.157287 
2766.000000	47.544860 
2764.000000	47.860717 
2762.000000	48.162841 
2760.000000	48.464965 
2758.000000	48.759460 
2756.000000	49.065399 
2754.000000	49.388885 
2752.000000	49.698638 
2750.000000	49.965667 
2748.000000	50.169372 
2746.000000	50.303649 
2744.000000	50.402069 
2742.000000	50.515747 
2740.000000	50.691986 
2738.000000	50.901031 
2736.000000	51.121520 
2734.000000	51.358032 
2732.000000	51.598358 
2730.000000	51.851654 
2728.000000	52.140045 
2726.000000	52.425384 
2724.000000	52.697753 
2722.000000	52.916717 
2720.000000	53.073883 
2718.000000	53.176879 
2716.000000	53.266906 
2714.000000	53.366088 
2712.000000	53.466033 
2710.000000	53.594207 
2708.000000	53.803253 
2706.000000	54.073333 
2704.000000	54.406738 
2702.000000	54.804229 
2700.000000	55.198669 
2698.000000	55.545043 
2696.000000	55.828094 
2694.000000	56.020355 
2692.000000	56.122589 
2690.000000	56.159210 
2688.000000	56.124877 
2686.000000	56.035614 
2684.000000	55.915832 
2682.000000	55.739593 
2680.000000	55.476379 
2678.000000	55.162048 
2676.000000	54.772949 
2674.000000	54.286193 
2672.000000	53.746795 
2670.000000	53.218841 
2668.000000	52.742004 
2666.000000	52.339935 
2664.000000	52.038574 
2662.000000	51.850128 
2660.000000	51.770782 
2658.000000	51.783752 
2656.000000	51.877593 
2654.000000	52.058410 
2652.000000	52.286529 
2650.000000	52.516174 
2648.000000	52.722167 
2646.000000	52.878570 
2644.000000	52.944183 
2642.000000	52.955627 
2640.000000	52.961730 
2638.000000	52.987670 
2636.000000	53.121948 
2634.000000	53.446197 
2632.000000	53.975677 
2630.000000	54.665374 
2628.000000	55.410003 
2626.000000	56.118011 
2624.000000	56.770324 
2622.000000	57.339477 
2620.000000	57.839202 
2618.000000	58.291625 
2616.000000	58.720397 
2614.000000	59.101104 
2612.000000	59.410095 
2610.000000	59.667968 
2608.000000	59.912109 
2606.000000	60.146331 
2604.000000	60.375213 
2602.000000	60.589599 
2600.000000	60.803222 
2598.000000	61.057281 
2596.000000	61.378479 
2594.000000	61.770629 
2592.000000	62.241363 
2590.000000	62.783813 
2588.000000	63.367462 
2586.000000	63.960266 
2584.000000	64.558410 
2582.000000	65.160369 
2580.000000	65.746307 
2578.000000	66.300964 
2576.000000	66.809082 
2574.000000	67.272186 
2572.000000	67.684936 
2570.000000	68.032073 
2568.000000	68.296813 
2566.000000	68.491363 
2564.000000	68.616485 
2562.000000	68.673706 
2560.000000	68.651580 
2558.000000	68.574523 
2556.000000	68.444824 
2554.000000	68.261718 
2552.000000	68.062591 
2550.000000	67.904663 
2548.000000	67.838287 
2546.000000	67.928314 
2544.000000	68.153381 
2542.000000	68.433380 
2540.000000	68.677520 
2538.000000	68.820190 
2536.000000	68.888854 
2534.000000	68.924713 
2532.000000	68.976593 
2530.000000	69.104766 
2528.000000	69.339752 
2526.000000	69.709777 
2524.000000	70.254516 
2522.000000	70.926666 
2520.000000	71.623992 
2518.000000	72.279357 
2516.000000	72.839355 
2514.000000	73.288726 
2512.000000	73.646545 
2510.000000	73.918914 
2508.000000	74.117279 
2506.000000	74.197387 
2504.000000	74.198913 
2502.000000	74.140930 
2500.000000	74.009704 
2498.000000	73.834991 
2496.000000	73.636627 
2494.000000	73.415374 
2492.000000	73.213195 
2490.000000	73.022460 
2488.000000	72.841644 
2486.000000	72.700500 
2484.000000	72.589111 
2482.000000	72.515869 
2480.000000	72.500610 
2478.000000	72.544860 
2476.000000	72.642517 
2474.000000	72.805023 
2472.000000	73.159790 
2470.000000	73.750305 
2468.000000	74.391174 
2466.000000	74.965667 
2464.000000	75.466156 
2462.000000	75.937652 
2460.000000	76.363372 
2458.000000	76.744079 
2456.000000	77.060699 
2454.000000	77.290344 
2452.000000	77.445983 
2450.000000	77.555084 
2448.000000	77.578735 
2446.000000	77.511596 
2444.000000	77.351379 
2442.000000	77.109527 
2440.000000	76.810455 
2438.000000	76.477050 
2436.000000	76.099395 
2434.000000	75.692749 
2432.000000	75.302124 
2430.000000	74.928283 
2428.000000	74.571228 
2426.000000	74.242401 
2424.000000	73.947906 
2422.000000	73.683166 
2420.000000	73.482513 
2418.000000	73.410034 
2416.000000	73.481750 
2414.000000	73.686218 
2412.000000	74.026489 
2410.000000	74.462127 
2408.000000	74.923706 
2406.000000	75.380706 
2404.000000	75.836944 
2402.000000	76.270294 
2400.000000	76.665496 
2398.000000	77.015686 
2396.000000	77.323150 
2394.000000	77.570343 
2392.000000	77.758789 
2390.000000	77.861785 
2388.000000	77.850341 
2386.000000	77.695465 
2384.000000	77.411651 
2382.000000	77.037048 
2380.000000	76.593780 
2378.000000	76.113128 
2376.000000	75.653839 
2374.000000	75.201416 
2372.000000	74.733734 
2370.000000	74.270629 
2368.000000	73.851013 
2366.000000	73.500823 
2364.000000	73.224639 
2362.000000	72.967529 
2360.000000	72.676849 
2358.000000	72.467803 
2356.000000	72.328948 
2354.000000	72.216796 
2352.000000	72.082519 
2350.000000	71.973419 
2348.000000	71.582794 
2346.000000	71.156311 
2344.000000	71.327972 
2342.000000	71.777343 
2340.000000	72.193145 
2338.000000	72.548675 
2336.000000	72.852325 
2334.000000	73.049163 
2332.000000	73.131561 
2330.000000	73.298645 
2328.000000	73.454284 
2326.000000	73.564147 
2324.000000	73.679351 
2322.000000	73.879241 
2320.000000	74.080657 
2318.000000	74.156188 
2316.000000	74.122619 
2314.000000	74.039459 
2312.000000	73.941802 
2310.000000	73.832702 
2308.000000	73.724365 
2306.000000	73.639678 
2304.000000	73.583984 
2302.000000	73.553466 
2300.000000	73.558044 
2298.000000	73.613739 
2296.000000	73.766326 
2294.000000	73.974609 
2292.000000	74.225616 
2290.000000	74.526214 
2288.000000	74.873352 
2286.000000	75.242614 
2284.000000	75.634765 
2282.000000	76.022338 
2280.000000	76.399230 
2278.000000	76.763153 
2276.000000	77.146911 
2274.000000	77.571105 
2272.000000	78.007507 
2270.000000	78.421020 
2268.000000	78.768920 
2266.000000	78.987121 
2264.000000	79.061126 
2262.000000	79.032135 
2260.000000	78.909301 
2258.000000	78.697967 
2256.000000	78.411102 
2254.000000	78.053283 
2252.000000	77.654266 
2250.000000	77.236175 
2248.000000	76.808929 
2246.000000	76.412200 
2244.000000	76.098632 
2242.000000	75.915527 
2240.000000	75.888824 
2238.000000	76.002502 
2236.000000	76.210784 
2234.000000	76.463317 
2232.000000	76.699829 
2230.000000	76.943969 
2228.000000	77.214813 
2226.000000	77.494049 
2224.000000	77.797698 
2222.000000	78.161621 
2220.000000	78.588867 
2218.000000	79.072570 
2216.000000	79.546356 
2214.000000	79.957580 
2212.000000	80.307006 
2210.000000	80.572509 
2208.000000	80.747985 
2206.000000	80.853271 
2204.000000	80.880737 
2202.000000	80.802917 
2200.000000	80.612182 
2198.000000	80.352783 
2196.000000	80.047607 
2194.000000	79.682159 
2192.000000	79.267120 
2190.000000	78.835296 
2188.000000	78.414916 
2186.000000	78.015899 
2184.000000	77.660369 
2182.000000	77.344512 
2180.000000	77.111816 
2178.000000	76.957702 
2176.000000	76.853942 
2174.000000	76.815795 
2172.000000	76.875305 
2170.000000	77.008819 
2168.000000	77.193450 
2166.000000	77.433013 
2164.000000	77.719116 
2162.000000	78.041076 
2160.000000	78.373718 
2158.000000	78.712463 
2156.000000	79.048919 
2154.000000	79.372406 
2152.000000	79.687500 
2150.000000	79.982757 
2148.000000	80.243682 
2146.000000	80.478668 
2144.000000	80.659484 
2142.000000	80.756378 
2140.000000	80.789184 
2138.000000	80.764770 
2136.000000	80.667114 
2134.000000	80.505371 
2132.000000	80.263519 
2130.000000	79.949188 
2128.000000	79.593658 
2126.000000	79.221343 
2124.000000	78.851318 
2122.000000	78.521728 
2120.000000	78.239440 
2118.000000	77.998352 
2116.000000	77.797698 
2114.000000	77.688598 
2112.000000	77.671813 
2110.000000	77.731323 
2108.000000	77.883911 
2106.000000	78.118896 
2104.000000	78.395843 
2102.000000	78.736114 
2100.000000	79.154968 
2098.000000	79.605865 
2096.000000	80.042266 
2094.000000	80.453491 
2092.000000	80.822753 
2090.000000	81.175994 
2088.000000	81.497192 
2086.000000	81.716156 
2084.000000	81.837463 
2082.000000	81.878662 
2080.000000	81.830596 
2078.000000	81.678771 
2076.000000	81.437683 
2074.000000	81.124114 
2072.000000	80.738067 
2070.000000	80.283355 
2068.000000	79.788208 
2066.000000	79.250335 
2064.000000	78.778839 
2062.000000	78.334045 
2060.000000	77.882385 
2058.000000	77.495574 
2056.000000	77.160644 
2054.000000	76.882171 
2052.000000	76.689147 
2050.000000	76.569366 
2048.000000	76.525115 
2046.000000	76.565551 
2044.000000	76.644897 
2042.000000	76.762390 
2040.000000	76.980590 
2038.000000	77.239227 
2036.000000	77.477264 
2034.000000	77.689361 
2032.000000	77.882385 
2030.000000	78.039550 
2028.000000	78.096771 
2026.000000	78.044128 
2024.000000	77.877044 
2022.000000	77.673339 
2020.000000	77.471160 
2018.000000	77.383422 
2016.000000	77.739715 
2014.000000	78.372955 
2012.000000	78.944396 
2010.000000	79.331207 
2008.000000	79.489135 
2006.000000	79.486846 
2004.000000	79.338073 
2002.000000	79.079437 
2000.000000	78.776550 
1998.000000	78.507995 
1996.000000	78.247070 
1994.000000	77.918243 
1992.000000	77.720642 
1990.000000	77.753448 
1988.000000	77.794647 
1986.000000	77.885437 
1984.000000	78.054809 
1982.000000	78.308105 
1980.000000	78.623199 
1978.000000	78.988647 
1976.000000	79.402160 
1974.000000	79.850006 
1972.000000	80.299377 
1970.000000	80.657958 
1968.000000	80.925750 
1966.000000	81.427764 
1964.000000	81.838989 
1962.000000	82.009887 
1960.000000	82.162475 
1958.000000	82.227325 
1956.000000	82.180023 
1954.000000	82.106018 
1952.000000	81.935882 
1950.000000	81.616210 
1948.000000	81.187438 
1946.000000	80.658721 
1944.000000	80.056762 
1942.000000	79.667663 
1940.000000	79.413604 
1938.000000	78.903961 
1936.000000	78.408813 
1934.000000	78.021240 
1932.000000	77.705383 
1930.000000	77.478790 
1928.000000	77.330017 
1926.000000	77.206420 
1924.000000	77.050781 
1922.000000	77.219390 
1920.000000	77.413940 
1918.000000	77.606201 
1916.000000	78.121185 
1914.000000	78.452301 
1912.000000	78.662872 
1910.000000	78.894042 
1908.000000	79.306793 
1906.000000	79.619598 
1904.000000	79.743194 
1902.000000	79.780578 
1900.000000	79.768371 
1898.000000	79.688262 
1896.000000	79.668426 
1894.000000	79.985809 
1892.000000	80.209350 
1890.000000	80.411529 
1888.000000	80.983734 
1886.000000	81.032562 
1884.000000	80.764770 
1882.000000	80.500030 
1880.000000	80.111694 
1878.000000	79.708099 
1876.000000	79.311370 
1874.000000	78.918457 
1872.000000	78.421020 
1870.000000	77.808380 
1868.000000	77.799224 
1866.000000	78.144836 
1864.000000	78.189086 
1862.000000	78.182220 
1860.000000	78.351593 
1858.000000	78.663635 
1856.000000	79.057312 
1854.000000	79.482269 
1852.000000	79.951477 
1850.000000	80.330657 
1848.000000	80.663299 
1846.000000	80.889129 
1844.000000	81.536865 
1842.000000	82.572174 
1840.000000	82.776641 
1838.000000	82.765960 
1836.000000	82.968902 
1834.000000	82.984924 
1832.000000	82.447052 
1830.000000	82.060241 
1828.000000	82.152557 
1826.000000	81.509399 
1824.000000	80.898284 
1822.000000	80.386352 
1820.000000	79.606628 
1818.000000	78.880310 
1816.000000	78.353118 
1814.000000	77.734375 
1812.000000	77.053833 
1810.000000	76.652526 
1808.000000	76.394653 
1806.000000	76.029968 
1804.000000	75.618743 
1802.000000	75.177764 
1800.000000	75.118255 
1798.000000	75.151062 
1796.000000	74.997711 
1794.000000	74.678039 
1792.000000	74.526977 
1790.000000	74.829864 
1788.000000	74.792480 
1786.000000	74.514007 
1784.000000	74.479675 
1782.000000	74.425506 
1780.000000	74.509429 
1778.000000	74.734497 
1776.000000	74.562072 
1774.000000	74.069976 
1772.000000	74.011230 
1770.000000	74.237823 
1768.000000	73.850250 
1766.000000	73.419952 
1764.000000	72.567749 
1762.000000	71.566009 
1760.000000	70.858764 
1758.000000	69.760131 
1756.000000	68.464660 
1754.000000	67.264556 
1752.000000	65.457916 
1750.000000	63.487243 
1748.000000	61.539459 
1746.000000	59.813690 
1744.000000	57.895660 
1742.000000	56.181335 
1740.000000	54.625701 
1738.000000	53.782653 
1736.000000	53.529357 
1734.000000	53.279876 
1732.000000	53.210449 
1730.000000	52.411651 
1728.000000	50.381469 
1726.000000	47.340393 
1724.000000	43.112182 
1722.000000	39.316558 
1720.000000	37.084197 
1718.000000	34.632110 
1716.000000	32.053375 
1714.000000	31.324005 
1712.000000	31.832885 
1710.000000	33.498382 
1708.000000	35.961151 
1706.000000	39.505004 
1704.000000	43.915557 
1702.000000	46.266937 
1700.000000	49.616241 
1698.000000	52.709197 
1696.000000	56.091308 
1694.000000	60.619354 
1692.000000	62.435913 
1690.000000	63.945007 
1688.000000	65.379333 
1686.000000	65.710449 
1684.000000	66.490936 
1682.000000	68.165588 
1680.000000	68.350219 
1678.000000	68.552398 
1676.000000	68.635559 
1674.000000	69.248962 
1672.000000	69.502258 
1670.000000	69.645690 
1668.000000	70.727539 
1666.000000	71.282958 
1664.000000	71.361541 
1662.000000	71.977996 
1660.000000	72.724914 
1658.000000	72.941589 
1656.000000	72.634124 
1654.000000	72.081756 
1652.000000	74.391174 
1650.000000	74.431610 
1648.000000	73.587799 
1646.000000	74.586486 
1644.000000	75.234222 
1642.000000	74.756622 
1640.000000	74.246215 
1638.000000	73.355865 
1636.000000	72.724151 
1634.000000	73.091888 
1632.000000	72.255706 
1630.000000	71.176910 
1628.000000	70.838928 
1626.000000	71.031951 
1624.000000	70.953369 
1622.000000	71.405792 
1620.000000	71.487426 
1618.000000	71.028137 
1616.000000	71.425628 
1614.000000	71.972656 
1612.000000	71.966552 
1610.000000	72.047424 
1608.000000	72.428131 
1606.000000	72.926330 
1604.000000	73.330688 
1602.000000	73.831939 
1600.000000	74.462127 
1598.000000	74.982452 
1596.000000	75.434112 
1594.000000	76.041412 
1592.000000	76.596069 
1590.000000	77.046203 
1588.000000	77.465057 
1586.000000	77.741241 
1584.000000	77.909851 
1582.000000	78.017425 
1580.000000	77.859497 
1578.000000	77.122497 
1576.000000	77.096557 
1574.000000	77.710723 
1572.000000	76.782989 
1570.000000	75.794219 
1568.000000	75.823974 
1566.000000	75.270843 
1564.000000	74.475097 
1562.000000	73.683166 
1560.000000	72.187805 
1558.000000	72.542572 
1556.000000	72.861480 
1554.000000	72.592163 
1552.000000	72.496795 
1550.000000	72.467041 
1548.000000	72.728729 
1546.000000	72.584533 
1544.000000	72.436523 
1542.000000	72.422027 
1540.000000	73.401641 
1538.000000	75.193786 
1536.000000	75.148010 
1534.000000	74.980926 
1532.000000	76.084136 
1530.000000	76.174926 
1528.000000	75.781250 
1526.000000	75.725555 
1524.000000	75.564575 
1522.000000	74.886322 
1520.000000	75.283050 
1518.000000	74.566650 
1516.000000	73.841857 
1514.000000	73.333740 
1512.000000	72.115325 
1510.000000	70.666503 
1508.000000	69.004821 
1506.000000	68.761444 
1504.000000	68.518066 
1502.000000	67.440795 
1500.000000	66.281890 
1498.000000	65.345001 
1496.000000	64.756011 
1494.000000	64.328002 
1492.000000	63.437652 
1490.000000	62.258148 
1488.000000	61.145782 
1486.000000	59.542083 
1484.000000	56.757354 
1482.000000	51.812744 
1480.000000	43.281555 
1478.000000	32.282257 
1476.000000	16.689300 
1474.000000	4.596710  
1472.000000	1.342010  
1470.000000	1.508331  
1468.000000	1.483154  
1466.000000	1.331329  
1464.000000	1.340484  
1462.000000	2.064514  
1460.000000	3.588867  
1458.000000	6.314086  
1456.000000	11.031341 
1454.000000	14.708709 
1452.000000	18.865966 
1450.000000	22.922515 
1448.000000	26.176452 
1446.000000	28.713989 
1444.000000	30.336761 
1442.000000	31.996917 
1440.000000	33.696746 
1438.000000	35.329437 
1436.000000	38.610076 
1434.000000	41.860961 
1432.000000	44.657897 
1430.000000	48.407745 
1428.000000	52.085113 
1426.000000	54.116058 
1424.000000	55.553436 
1422.000000	56.439208 
1420.000000	56.427001 
1418.000000	56.519317 
1416.000000	56.586456 
1414.000000	56.347656 
1412.000000	56.239318 
1410.000000	56.597900 
1408.000000	57.260894 
1406.000000	58.069610 
1404.000000	59.547424 
1402.000000	60.941314 
1400.000000	61.958312 
1398.000000	63.082122 
1396.000000	63.835144 
1394.000000	64.548492 
1392.000000	64.852142 
1390.000000	64.415740 
1388.000000	63.372802 
1386.000000	61.585235 
1384.000000	58.610534 
1382.000000	53.713989 
1380.000000	47.800445 
1378.000000	43.865966 
1376.000000	43.406677 
1374.000000	44.635009 
1372.000000	44.865417 
1370.000000	44.218444 
1368.000000	44.241333 
1366.000000	45.163726 
1364.000000	46.343231 
1362.000000	47.986602 
1360.000000	49.215698 
1358.000000	49.697875 
1356.000000	49.764251 
1354.000000	49.691772 
1352.000000	49.887084 
1350.000000	50.629425 
1348.000000	51.866149 
1346.000000	53.256988 
1344.000000	54.568481 
1342.000000	55.606842 
1340.000000	56.788635 
1338.000000	58.661651 
1336.000000	60.445404 
1334.000000	61.756896 
1332.000000	62.583923 
1330.000000	63.023376 
1328.000000	63.153076 
1326.000000	62.986755 
1324.000000	62.561798 
1322.000000	61.857604 
1320.000000	60.904693 
1318.000000	59.870147 
1316.000000	58.867645 
1314.000000	57.794189 
1312.000000	56.729888 
1310.000000	55.773162 
1308.000000	54.921722 
1306.000000	54.231262 
1304.000000	53.678131 
1302.000000	53.240203 
1300.000000	52.949523 
1298.000000	52.877044 
1296.000000	53.028106 
1294.000000	53.372955 
1292.000000	53.813171 
1290.000000	54.270172 
1288.000000	54.757690 
1286.000000	55.334472 
1284.000000	55.948638 
1282.000000	56.513214 
1280.000000	57.012939 
1278.000000	57.499694 
1276.000000	58.013916 
1274.000000	58.555603 
1272.000000	59.145355 
1270.000000	59.795379 
1268.000000	60.405731 
1266.000000	60.952758 
1264.000000	61.389160 
1262.000000	61.668395 
1260.000000	61.835479 
1258.000000	61.901855 
1256.000000	61.849975 
1254.000000	61.713409 
1252.000000	61.511230 
1250.000000	61.261749 
1248.000000	60.949707 
1246.000000	60.625457 
1244.000000	60.305023 
1242.000000	60.018157 
1240.000000	59.765625 
1238.000000	59.573364 
1236.000000	59.457397 
1234.000000	59.410858 
1232.000000	59.439086 
1230.000000	59.558868 
1228.000000	59.738159 
1226.000000	59.974670 
1224.000000	60.281372 
1222.000000	60.643005 
1220.000000	61.071014 
1218.000000	61.568450 
1216.000000	62.115478 
1214.000000	62.643432 
1212.000000	63.151550 
1210.000000	63.624572 
1208.000000	64.044189 
1206.000000	64.411926 
1204.000000	64.686584 
1202.000000	64.851379 
1200.000000	64.909362 
1198.000000	64.830780 
1196.000000	64.652252 
1194.000000	64.389038 
1192.000000	64.062500 
1190.000000	63.649749 
1188.000000	63.164520 
1186.000000	62.661743 
1184.000000	62.158966 
1182.000000	61.606597 
1180.000000	60.926055 
1178.000000	60.224914 
1176.000000	59.901428 
1174.000000	59.867858 
1172.000000	59.791564 
1170.000000	59.705352 
1168.000000	59.708404 
1166.000000	59.846496 
1164.000000	60.134124 
1162.000000	60.558319 
1160.000000	61.087036 
1158.000000	61.730194 
1156.000000	62.487030 
1154.000000	63.348388 
1152.000000	64.221954 
1150.000000	65.068054 
1148.000000	65.858459 
1146.000000	66.592407 
1144.000000	67.231750 
1142.000000	67.735290 
1140.000000	68.087768 
1138.000000	68.320465 
1136.000000	68.419647 
1134.000000	68.414306 
1132.000000	68.295288 
1130.000000	68.097686 
1128.000000	67.813110 
1126.000000	67.441558 
1124.000000	66.983032 
1122.000000	66.472625 
1120.000000	65.937042 
1118.000000	65.427398 
1116.000000	64.997863 
1114.000000	64.659118 
1112.000000	64.443206 
1110.000000	64.324188 
1108.000000	64.256286 
1106.000000	64.279174 
1104.000000	64.411926 
1102.000000	64.621734 
1100.000000	64.832305 
1098.000000	65.044403 
1096.000000	65.331268 
1094.000000	65.648651 
1092.000000	65.986633 
1090.000000	66.328430 
1088.000000	66.699981 
1086.000000	67.063140 
1084.000000	67.402648 
1082.000000	67.699432 
1080.000000	68.048858 
1078.000000	68.479919 
1076.000000	68.917846 
1074.000000	69.279479 
1072.000000	69.549560 
1070.000000	69.666290 
1068.000000	69.561004 
1066.000000	69.261932 
1064.000000	68.852996 
1062.000000	68.441009 
1060.000000	68.099212 
1058.000000	67.752838 
1056.000000	67.321014 
1054.000000	66.761016 
1052.000000	66.051483 
1050.000000	65.590667 
1048.000000	65.568542 
1046.000000	65.582275 
1044.000000	65.493774 
1042.000000	65.442657 
1040.000000	65.487670 
1038.000000	65.639495 
1036.000000	65.834045 
1034.000000	66.074371 
1032.000000	66.338348 
1030.000000	66.608428 
1028.000000	66.873168 
1026.000000	67.085266 
1024.000000	67.204284 
1022.000000	67.318725 
1020.000000	67.476654 
1018.000000	67.783355 
1016.000000	68.341064 
1014.000000	69.104003 
1012.000000	69.923400 
1010.000000	70.647430 
1008.000000	71.190643 
1006.000000	71.510314 
1004.000000	71.604919 
1002.000000	71.514892 
1000.000000	71.250152 
998.000000	 70.845031 
996.000000	 70.357513 
994.000000	 69.813537 
992.000000	 69.280242 
990.000000	 68.811798 
988.000000	 68.399047 
986.000000	 68.016815 
984.000000	 67.746734 
982.000000	 67.569732 
980.000000	 67.488098 
978.000000	 67.509460 
976.000000	 67.619323 
974.000000	 67.826843 
972.000000	 68.131256 
970.000000	 68.513488 
968.000000	 68.955993 
966.000000	 69.419860 
964.000000	 69.931793 
962.000000	 70.549774 
960.000000	 71.276855 
958.000000	 71.985626 
956.000000	 72.611999 
954.000000	 73.135375 
952.000000	 73.546600 
950.000000	 73.883819 
948.000000	 74.082183 
946.000000	 74.116516 
944.000000	 74.022674 
942.000000	 73.835754 
940.000000	 73.550415 
938.000000	 73.149871 
936.000000	 72.656250 
934.000000	 72.141265 
932.000000	 71.579742 
930.000000	 71.036529 
928.000000	 70.568847 
926.000000	 70.149230 
924.000000	 69.742584 
922.000000	 69.453430 
920.000000	 69.245147 
918.000000	 69.087219 
916.000000	 69.017028 
914.000000	 69.090270 
912.000000	 69.263458 
910.000000	 69.532775 
908.000000	 69.979858 
906.000000	 70.669555 
904.000000	 71.489715 
902.000000	 72.303771 
900.000000	 73.054504 
898.000000	 73.773193 
896.000000	 74.472045 
894.000000	 75.163269 
892.000000	 75.875854 
890.000000	 76.596832 
888.000000	 77.293395 
886.000000	 77.931213 
884.000000	 78.375244 
882.000000	 78.505706 
880.000000	 78.453063 
878.000000	 78.200531 
876.000000	 77.722930 
874.000000	 77.063751 
872.000000	 76.342010 
870.000000	 75.608062 
868.000000	 74.887847 
866.000000	 74.112701 
864.000000	 73.425292 
862.000000	 72.856903 
860.000000	 72.402954 
858.000000	 72.105407 
856.000000	 71.981811 
854.000000	 71.972656 
852.000000	 72.095489 
850.000000	 72.452545 
848.000000	 72.949218 
846.000000	 73.529052 
844.000000	 74.265289 
842.000000	 75.109863 
840.000000	 75.985717 
838.000000	 76.879119 
836.000000	 77.754211 
834.000000	 78.615570 
832.000000	 79.405975 
830.000000	 80.086517 
828.000000	 80.580139 
826.000000	 81.005096 
824.000000	 81.291961 
822.000000	 81.410217 
820.000000	 81.243133 
818.000000	 80.863189 
816.000000	 80.310058 
814.000000	 79.662322 
812.000000	 78.852844 
810.000000	 77.897644 
808.000000	 76.843261 
806.000000	 75.865173 
804.000000	 74.922180 
802.000000	 74.047851 
800.000000	 73.269653 
798.000000	 72.605133 
796.000000	 72.116851 
794.000000	 71.792602 
792.000000	 71.645355 
790.000000	 71.602630 
788.000000	 71.659088 
786.000000	 71.861267 
784.000000	 72.193145 
782.000000	 72.588348 
780.000000	 73.023986 
778.000000	 73.588562 
776.000000	 74.313354 
774.000000	 75.032806 
772.000000	 75.683593 
770.000000	 76.226806 
768.000000	 76.759338 
766.000000	 77.179718 
764.000000	 77.386474 
762.000000	 77.291870 
760.000000	 76.941680 
758.000000	 76.256561 
756.000000	 75.229644 
754.000000	 73.957061 
752.000000	 72.460937 
750.000000	 70.727539 
748.000000	 68.839263 
746.000000	 66.734313 
744.000000	 64.463043 
742.000000	 61.928558 
740.000000	 58.736419 
738.000000	 54.264068 
736.000000	 46.794891 
734.000000	 33.032226 
732.000000	 15.749359 
730.000000	 7.292938  
728.000000	 11.163330 
726.000000	 16.901397 
724.000000	 17.147064 
722.000000	 12.971496 
720.000000	 9.935760  
718.000000	 14.595794 
716.000000	 26.180267 
714.000000	 38.268280 
712.000000	 47.245025 
710.000000	 53.771972 
708.000000	 58.989715 
706.000000	 63.410186 
704.000000	 67.237091 
702.000000	 70.607757 
700.000000	 73.510742 
698.000000	 75.981140 
696.000000	 78.036499 
694.000000	 79.590606 
692.000000	 80.659484 
690.000000	 81.365203 
688.000000	 81.625366 
686.000000	 81.451416 
684.000000	 80.994415 
682.000000	 80.372619 
680.000000	 79.598236 
678.000000	 78.684997 
676.000000	 77.712249 
674.000000	 76.744842 
672.000000	 75.697326 
670.000000	 74.642944 
668.000000	 74.259185 
666.000000	 74.459838 
664.000000	 74.304199 
662.000000	 74.198150 
660.000000	 74.237823 
658.000000	 74.499511 
656.000000	 74.972534 
654.000000	 75.569915 
652.000000	 76.301574 
650.000000	 77.215576 
648.000000	 78.325653 
646.000000	 79.430389 
644.000000	 80.496215 
642.000000	 81.556701 
640.000000	 82.592773 
638.000000	 83.486175 
636.000000	 84.239196 
634.000000	 84.918975 
632.000000	 85.373687 
630.000000	 85.497283 
628.000000	 85.400390 
626.000000	 85.064697 
624.000000	 84.512329 
622.000000	 83.740997 
620.000000	 82.810974 
618.000000	 81.893157 
616.000000	 81.097412 
614.000000	 80.280303 
612.000000	 79.297637 
610.000000	 78.367614 
608.000000	 77.526855 
606.000000	 76.812744 
604.000000	 76.217651 
602.000000	 75.817108 
600.000000	 75.492858 
598.000000	 75.494384 
596.000000	 75.654602 
594.000000	 75.934600 
592.000000	 76.362609 
590.000000	 77.185821 
588.000000	 78.002929 
586.000000	 78.984069 
584.000000	 80.087280 
582.000000	 81.036376 
580.000000	 81.989288 
578.000000	 83.036041 
576.000000	 84.006500 
574.000000	 84.809112 
572.000000	 85.378265 
570.000000	 85.754394 
568.000000	 85.868072 
566.000000	 85.784149 
564.000000	 85.507965 
562.000000	 84.854125 
560.000000	 84.106445 
558.000000	 83.279418 
556.000000	 82.374572 
554.000000	 81.353759 
552.000000	 80.233764 
550.000000	 79.199218 
548.000000	 78.260803 
546.000000	 77.243041 
544.000000	 76.441192 
542.000000	 75.794982 
540.000000	 75.325775 
538.000000	 75.074005 
536.000000	 75.108337 
534.000000	 75.299835 
532.000000	 75.696563 
530.000000	 76.136016 
528.000000	 76.790618 
526.000000	 77.723693 
524.000000	 78.739929 
522.000000	 79.550170 
520.000000	 80.325317 
518.000000	 81.406402 
516.000000	 82.722473 
514.000000	 83.694458 
512.000000	 84.477996 
510.000000	 85.048675 
508.000000	 85.399627 
506.000000	 85.793304 
504.000000	 86.000823 
502.000000	 85.968017 
500.000000	 85.395812 
498.000000	 84.729766 
496.000000	 84.064483 
494.000000	 83.290863 
492.000000	 82.273864 
490.000000	 80.978393 
488.000000	 79.682159 
486.000000	 78.607940 
484.000000	 77.471923 
482.000000	 76.563262 
480.000000	 75.495147 
478.000000	 74.498748 
476.000000	 74.011230 
474.000000	 73.699188 
472.000000	 73.271942 
470.000000	 73.249816 
468.000000	 73.367309 
466.000000	 73.653411 
464.000000	 74.291229 
462.000000	 75.444030 
460.000000	 76.505279 
458.000000	 77.128601 
456.000000	 77.935028 
454.000000	 79.018402 
452.000000	 80.079650 
450.000000	 81.003570 
448.000000	 82.463073 
446.000000	 83.857727 
444.000000	 84.497833 
442.000000	 84.851074 
440.000000	 85.249328 
438.000000	 85.090637 
436.000000	 84.759521 
434.000000	 84.621429 
432.000000	 84.542846 
430.000000	 83.761596 
428.000000	 82.745361 
426.000000	 81.083679 
424.000000	 80.184173 
422.000000	 79.915618 
420.000000	 80.091094 
418.000000	 78.780364 
416.000000	 77.194976 
414.000000	 76.618194 
412.000000	 77.056884 
410.000000	 77.351379 
408.000000	 77.350616 
406.000000	 77.606964 
404.000000	 78.449249 
402.000000	 78.914642 
400.000000	 78.970336 

